year co2cumem[PgC] co2em[PgC] co2conc[ppm] T_TCRE[K] T_ESM[K]
0	0.4090	0.4090	282.7011	0.0000	0.0000
1	0.9245	0.5155	282.8734	0.0007	-0.2019
2	1.5414	0.6169	282.8876	0.0015	-0.2906
3	2.2832	0.7418	283.0129	0.0025	-0.1719
4	3.1724	0.8892	283.5659	0.0036	0.0167
5	4.2294	1.0570	284.0574	0.0050	0.2041
6	5.4815	1.2521	284.4409	0.0067	0.1682
7	6.9640	1.4825	285.4125	0.0087	0.0888
8	8.7064	1.7424	285.9002	0.0110	-0.2164
9	10.7515	2.0451	286.5074	0.0137	-0.3712
10	13.1405	2.3890	287.1345	0.0168	-0.3700
11	15.9233	2.7828	288.2728	0.0205	-0.0760
12	19.1490	3.2257	289.6917	0.0247	0.0568
13	22.8744	3.7254	290.8299	0.0297	-0.2494
14	27.1603	4.2859	292.2050	0.0353	-0.0977
15	32.0751	4.9148	293.9833	0.0418	0.0973
16	37.6840	5.6089	295.7143	0.0492	0.0491
17	44.0634	6.3794	297.6675	0.0576	0.0385
18	51.2908	7.2274	299.8740	0.0672	-0.0762
19	59.4499	8.1591	302.6299	0.0779	-0.1084
20	68.6208	9.1709	305.6961	0.0900	-0.0972
21	78.8907	10.2699	309.1451	0.1036	0.1557
22	90.3479	11.4572	313.2024	0.1187	0.1903
23	103.0761	12.7282	317.3062	0.1355	0.0967
24	117.1629	14.0868	321.8084	0.1541	0.0208
25	132.6942	15.5313	326.6994	0.1746	-0.0326
26	149.7480	17.0538	331.9163	0.1971	0.1697
27	168.4090	18.6610	338.1084	0.2218	0.2073
28	188.7412	20.3322	344.6489	0.2486	0.1987
29	210.8140	22.0728	352.2077	0.2777	0.2225
30	234.6738	23.8598	359.7034	0.3092	0.3078
31	260.3713	25.6975	367.8735	0.3432	0.2870
32	287.9406	27.5693	376.7565	0.3795	0.3248
33	317.3984	29.4578	385.6851	0.4184	0.1992
34	348.7565	31.3581	395.4435	0.4598	0.1544
35	382.0061	33.2496	405.8274	0.5037	0.2312
36	417.1273	35.1212	417.3157	0.5501	0.6518
37	454.0746	36.9473	428.9900	0.5988	0.6760
38	492.7967	38.7221	441.4949	0.6500	0.7023
39	533.2175	40.4208	454.3815	0.7033	0.9059
40	575.2445	42.0270	467.4226	0.7588	0.6993
41	618.7803	43.5358	481.5253	0.8163	1.0094
42	663.6951	44.9148	495.8557	0.8755	1.0009
43	709.8499	46.1548	509.9543	0.9365	0.8830
44	757.1048	47.2549	524.9075	0.9988	1.0956
45	805.2910	48.1862	540.2188	1.0624	1.1541
46	854.2322	48.9412	555.2549	1.1270	1.1617
47	903.7584	49.5262	571.0590	1.1924	1.4899
48	953.6654	49.9070	586.3252	1.2583	1.3300
49	1003.7663	50.1009	601.4341	1.3244	1.0956
50	1053.8696	50.1033	616.9296	1.3906	1.1448
51	1103.7792	49.9096	632.3829	1.4564	1.3043
52	1153.3029	49.5237	647.9662	1.5218	1.5855
53	1202.2467	48.9438	662.9968	1.5864	1.6353
54	1250.4282	48.1815	677.0857	1.6500	1.4259
55	1297.6782	47.2500	690.8076	1.7124	1.3510
56	1343.8362	46.1580	704.2623	1.7733	1.5933
57	1388.7474	44.9112	717.2493	1.8326	1.5708
58	1432.2827	43.5353	730.1985	1.8901	1.9833
59	1474.3095	42.0268	741.8712	1.9455	1.8902
60	1514.7255	40.4160	753.0099	1.9989	1.5963
61	1553.4422	38.7167	763.3790	2.0500	1.6395
62	1590.3856	36.9434	773.1541	2.0988	1.9057
63	1625.5010	35.1154	782.4388	2.1451	2.2173
64	1658.7464	33.2454	790.8043	2.1890	2.2387
65	1690.0921	31.3457	797.6387	2.2304	1.8103
66	1719.5410	29.4489	804.0386	2.2693	1.8364
67	1747.1026	27.5616	810.1685	2.3056	2.0844
68	1772.7901	25.6875	815.4077	2.3395	2.3794
69	1796.6340	23.8439	819.4733	2.3710	2.0054
70	1818.6889	22.0549	823.5005	2.4001	2.2506
71	1839.0027	20.3138	826.3716	2.4269	2.2821
72	1857.6423	18.6396	828.6456	2.4515	2.0618
73	1874.6796	17.0373	830.1891	2.4740	2.1295
74	1890.1904	15.5108	831.3857	2.4945	2.2704
75	1904.2539	14.0635	831.8019	2.5131	2.0750
76	1916.9611	12.7072	832.0501	2.5298	2.1373
77	1928.3977	11.4366	832.1643	2.5449	2.2608
78	1938.6460	10.2483	831.5613	2.5585	2.2447
79	1947.7971	9.1511	830.7532	2.5706	2.1850
80	1955.9312	8.1341	829.0811	2.5813	2.2241
81	1963.1363	7.2051	827.4924	2.5908	2.2266
82	1969.4992	6.3629	825.9806	2.5992	2.3963
83	1975.0825	5.5833	823.3698	2.6066	2.1178
84	1979.9729	4.8904	820.8768	2.6130	1.9862
85	1984.2348	4.2619	818.2407	2.6187	1.8566
86	1987.9343	3.6995	815.1677	2.6235	1.8110
87	1991.1347	3.2004	812.0906	2.6278	1.9338
88	1993.8932	2.7585	809.1303	2.6314	1.9729
89	1996.2600	2.3668	806.0209	2.6345	1.9858
90	1998.2803	2.0203	802.6225	2.6372	1.9180
91	2000.0038	1.7235	799.5357	2.6395	2.1016
92	2001.4640	1.4602	796.5737	2.6414	2.1852
93	2002.6956	1.2316	793.1096	2.6430	1.9465
94	2003.7296	1.0340	789.5367	2.6444	2.0461
95	2004.5948	0.8652	786.1290	2.6455	2.0313
96	2005.3150	0.7202	782.7602	2.6465	1.7978
97	2005.9163	0.6013	779.4053	2.6473	1.9479
98	2006.4149	0.4986	776.8886	2.6479	2.2514
99	2006.8215	0.4066	773.9080	2.6485	2.1093
100	2006.8110	-0.0105	770.8509	2.6485	1.7368
101	2006.8005	-0.0105	767.6283	2.6484	1.8641
102	2006.7908	-0.0097	764.7261	2.6484	2.0118
103	2006.7806	-0.0102	761.6250	2.6484	1.8623
104	2006.7739	-0.0067	758.8478	2.6484	1.9508
105	2006.7650	-0.0089	755.8890	2.6484	2.1917
106	2006.7583	-0.0067	753.2090	2.6484	2.1481
107	2006.7517	-0.0066	750.6898	2.6484	2.0160
108	2006.7443	-0.0074	747.8420	2.6484	1.7165
109	2006.7390	-0.0053	745.3682	2.6484	1.9579
110	2006.7325	-0.0065	742.5044	2.6483	2.1582
111	2006.7265	-0.0060	739.9385	2.6483	1.9193
112	2006.7232	-0.0033	737.4939	2.6483	1.9573
113	2006.7203	-0.0029	735.5700	2.6483	2.1373
114	2006.7160	-0.0043	733.1967	2.6483	1.7492
115	2006.7147	-0.0013	731.0918	2.6483	1.8240
116	2006.7097	-0.0050	728.9697	2.6483	1.9534
117	2006.7052	-0.0045	726.6094	2.6483	1.5398
118	2006.7023	-0.0029	724.3438	2.6483	1.5002
119	2006.6999	-0.0024	722.4500	2.6483	1.8458
120	2006.6942	-0.0057	720.3005	2.6483	1.7865
121	2006.6892	-0.0050	717.7954	2.6483	1.5474
122	2006.6895	0.0003	715.7831	2.6483	1.6658
123	2006.6916	0.0021	714.4269	2.6483	1.9504
124	2006.6890	-0.0026	712.3179	2.6483	1.8344
125	2006.6904	0.0014	710.4733	2.6483	1.8754
126	2006.6895	-0.0009	708.3952	2.6483	1.7325
127	2006.6898	0.0003	706.5565	2.6483	1.9003
128	2006.6938	0.0040	705.1700	2.6483	1.8191
129	2006.6942	0.0004	703.3569	2.6483	1.7341
130	2006.6953	0.0011	701.7151	2.6483	1.7035
131	2006.6970	0.0017	700.1454	2.6483	1.9271
132	2006.6974	0.0004	698.1379	2.6483	1.6525
133	2006.6978	0.0004	696.4548	2.6483	1.5860
134	2006.6995	0.0017	695.1168	2.6483	1.6085
135	2006.6985	-0.0010	693.3530	2.6483	1.5032
136	2006.6996	0.0011	691.7397	2.6483	1.6784
137	2006.7018	0.0022	690.5320	2.6483	1.8692
138	2006.7003	-0.0015	688.7245	2.6483	1.6107
139	2006.7032	0.0029	687.1895	2.6483	1.6159
140	2006.7090	0.0058	685.9864	2.6483	1.8079
141	2006.7091	0.0001	684.4960	2.6483	1.7602
142	2006.7142	0.0051	683.3001	2.6483	1.7149
143	2006.7180	0.0038	682.2914	2.6483	2.0197
144	2006.7207	0.0027	680.8661	2.6483	1.8309
145	2006.7209	0.0002	678.9644	2.6483	1.7520
146	2006.7263	0.0054	677.7012	2.6483	1.8784
147	2006.7299	0.0036	676.5072	2.6483	1.7163
148	2006.7362	0.0063	675.3612	2.6484	1.6508
149	2006.7434	0.0072	674.4454	2.6484	1.8789
150	2006.7460	0.0026	673.2170	2.6484	1.7476
151	2006.7492	0.0032	671.8026	2.6484	1.3833
152	2006.7497	0.0005	670.3006	2.6484	1.4020
153	2006.7543	0.0046	669.0973	2.6484	1.5905
154	2006.7589	0.0046	667.8463	2.6484	1.5982
155	2006.7664	0.0075	667.1290	2.6484	1.7588
156	2006.7718	0.0054	666.2223	2.6484	1.8612
157	2006.7761	0.0043	665.1497	2.6484	1.7937
158	2006.7812	0.0051	663.9515	2.6484	1.6086
159	2006.7865	0.0053	662.8319	2.6484	1.5830
160	2006.7952	0.0087	662.1876	2.6484	1.8282
161	2006.8020	0.0068	661.5305	2.6484	1.8601
162	2006.8069	0.0049	660.4036	2.6484	1.5916
163	2006.8107	0.0038	658.9707	2.6485	1.5151
164	2006.8179	0.0072	658.2239	2.6485	1.7271
165	2006.8241	0.0062	657.6454	2.6485	1.6994
166	2006.8273	0.0032	656.4011	2.6485	1.4089
167	2006.8371	0.0098	655.8558	2.6485	1.5912
168	2006.8420	0.0049	655.2527	2.6485	1.8853
169	2006.8507	0.0087	654.4387	2.6485	1.7423
170	2006.8563	0.0056	653.3922	2.6485	1.7859
171	2006.8632	0.0069	652.3796	2.6485	1.6053
172	2006.8697	0.0065	651.4890	2.6485	1.6253
173	2006.8736	0.0039	650.5774	2.6485	1.6382
174	2006.8782	0.0046	649.4899	2.6485	1.1376
175	2006.8841	0.0059	648.4648	2.6485	1.2971
176	2006.8893	0.0052	647.5156	2.6486	1.6844
177	2006.8999	0.0106	647.1456	2.6486	1.8871
178	2006.9075	0.0076	646.4301	2.6486	1.8445
179	2006.9188	0.0113	645.8845	2.6486	1.8435
180	2006.9269	0.0081	645.3249	2.6486	1.9184
181	2006.9300	0.0031	643.9686	2.6486	1.4648
182	2006.9372	0.0072	643.1542	2.6486	1.5228
183	2006.9487	0.0115	642.9335	2.6486	1.8650
184	2006.9567	0.0080	642.3411	2.6486	1.9161
185	2006.9651	0.0084	641.6205	2.6487	1.5928
186	2006.9704	0.0053	640.5378	2.6487	1.6542
187	2006.9778	0.0074	639.8234	2.6487	1.8333
188	2006.9882	0.0104	639.4470	2.6487	1.7938
189	2006.9950	0.0068	638.4532	2.6487	1.5337
190	2007.0045	0.0095	637.9125	2.6487	1.8091
191	2007.0129	0.0084	637.5024	2.6487	1.7676
192	2007.0218	0.0089	636.8359	2.6487	1.4546
193	2007.0312	0.0094	636.1816	2.6487	1.6173
194	2007.0396	0.0084	635.7537	2.6488	1.7733
195	2007.0492	0.0096	635.4266	2.6488	1.5953
196	2007.0563	0.0071	634.7375	2.6488	1.5854
197	2007.0646	0.0083	634.0015	2.6488	1.7168
198	2007.0717	0.0071	633.4093	2.6488	1.7185
199	2007.0774	0.0057	632.2865	2.6488	1.5660
200	2007.0905	0.0131	632.0190	2.6488	1.8620
201	2007.0969	0.0064	631.2121	2.6488	1.7675
202	2007.1041	0.0072	630.4030	2.6488	1.5386
203	2007.1171	0.0130	630.1697	2.6489	1.8177
204	2007.1255	0.0084	629.5355	2.6489	1.7671
205	2007.1326	0.0071	628.5340	2.6489	1.7486
206	2007.1463	0.0137	628.5338	2.6489	1.9207
207	2007.1555	0.0092	628.1111	2.6489	1.8635
208	2007.1631	0.0076	627.2645	2.6489	1.5794
209	2007.1718	0.0087	626.4099	2.6489	1.6153
210	2007.1839	0.0121	626.2126	2.6489	1.7742
211	2007.1907	0.0068	625.5851	2.6490	1.8029
212	2007.1998	0.0091	624.9047	2.6490	1.6218
213	2007.2113	0.0115	624.5450	2.6490	1.7520
214	2007.2244	0.0131	624.5965	2.6490	1.9098
215	2007.2317	0.0073	623.6890	2.6490	1.7781
216	2007.2428	0.0111	623.2253	2.6490	1.7807
217	2007.2544	0.0116	622.7576	2.6490	1.8919
218	2007.2603	0.0059	621.8217	2.6490	1.5928
219	2007.2690	0.0087	621.1357	2.6491	1.5096
220	2007.2777	0.0087	620.5845	2.6491	1.5885
221	2007.2875	0.0098	620.1367	2.6491	1.6318
222	2007.3020	0.0145	620.0786	2.6491	1.8418
223	2007.3100	0.0080	619.5056	2.6491	1.8875
224	2007.3229	0.0129	619.3032	2.6491	1.8283
225	2007.3326	0.0097	618.8695	2.6491	1.9049
226	2007.3406	0.0080	618.0818	2.6491	1.7800
227	2007.3500	0.0094	617.4111	2.6492	1.6288
228	2007.3612	0.0112	617.1075	2.6492	2.0044
229	2007.3733	0.0121	616.9368	2.6492	1.8297
230	2007.3820	0.0087	616.2308	2.6492	1.5480
231	2007.3930	0.0110	615.9905	2.6492	1.7552
232	2007.4024	0.0094	615.6400	2.6492	1.8797
233	2007.4134	0.0110	615.3240	2.6492	1.6171
234	2007.4233	0.0099	614.8952	2.6493	1.7327
235	2007.4345	0.0112	614.4771	2.6493	1.9259
236	2007.4444	0.0099	613.9771	2.6493	1.9152
237	2007.4557	0.0113	613.6642	2.6493	1.8654
238	2007.4687	0.0130	613.2810	2.6493	1.8755
239	2007.4746	0.0059	612.4769	2.6493	1.9319
240	2007.4810	0.0064	611.5378	2.6493	1.5399
241	2007.4911	0.0101	610.9637	2.6493	1.3564
242	2007.5050	0.0139	610.7513	2.6494	1.5926
243	2007.5177	0.0127	610.8010	2.6494	1.9123
244	2007.5275	0.0098	610.3166	2.6494	1.9175
245	2007.5354	0.0079	609.5567	2.6494	1.6923
246	2007.5460	0.0106	609.0875	2.6494	2.0121
247	2007.5565	0.0105	608.6860	2.6494	2.0839
248	2007.5719	0.0154	608.7693	2.6495	1.9950
249	2007.5814	0.0095	608.2576	2.6495	1.8441
250	2007.5921	0.0107	607.6831	2.6495	1.7514
251	2007.6057	0.0136	607.4161	2.6495	1.8776
252	2007.6155	0.0098	606.8312	2.6495	1.9693
253	2007.6268	0.0113	606.3334	2.6495	1.9176
254	2007.6384	0.0116	605.6160	2.6495	1.9430
255	2007.6490	0.0106	605.1027	2.6496	2.0610
256	2007.6609	0.0119	604.8582	2.6496	2.1061
257	2007.6701	0.0092	604.2331	2.6496	1.7406
258	2007.6819	0.0118	603.8226	2.6496	1.7761
259	2007.6963	0.0144	603.8618	2.6496	2.0515
260	2007.7078	0.0115	603.3996	2.6496	2.1409
261	2007.7174	0.0096	602.7710	2.6496	1.8932
262	2007.7357	0.0183	603.1901	2.6497	2.1814
263	2007.7485	0.0128	603.3611	2.6497	2.2267
264	2007.7566	0.0081	602.7429	2.6497	1.7708
265	2007.7663	0.0097	601.9475	2.6497	1.8942
266	2007.7824	0.0161	602.0418	2.6497	2.2858
267	2007.7935	0.0111	601.4518	2.6497	2.2857
268	2007.8046	0.0111	600.9519	2.6498	2.1483
269	2007.8182	0.0136	600.7940	2.6498	2.2684
270	2007.8288	0.0106	600.5199	2.6498	2.3941
271	2007.8421	0.0133	600.2159	2.6498	2.2473
272	2007.8542	0.0121	599.7833	2.6498	2.2994
273	2007.8702	0.0160	599.7538	2.6498	2.4265
274	2007.8821	0.0119	599.3289	2.6499	2.4018
275	2007.8971	0.0150	599.2026	2.6499	2.2807
276	2007.9113	0.0142	599.0249	2.6499	2.1887
277	2007.9263	0.0150	599.1036	2.6499	2.4476
278	2007.9394	0.0131	598.7659	2.6499	2.4164
279	2007.9517	0.0123	598.3842	2.6500	2.2601
280	2007.9649	0.0132	598.1923	2.6500	1.9313
281	2007.9764	0.0115	597.6390	2.6500	1.9178
282	2007.9905	0.0141	597.4005	2.6500	2.0266
283	2008.0024	0.0119	597.1880	2.6500	2.4305
284	2008.0174	0.0150	596.9122	2.6500	2.3826
285	2008.0320	0.0146	596.7421	2.6501	2.3741
286	2008.0459	0.0139	596.6147	2.6501	2.5115
287	2008.0566	0.0107	595.8648	2.6501	2.3028
288	2008.0718	0.0152	595.7609	2.6501	2.4433
289	2008.0854	0.0136	595.4776	2.6501	2.5198
290	2008.0988	0.0134	595.1849	2.6502	2.4276
291	2008.1158	0.0170	595.3502	2.6502	2.7065
292	2008.1290	0.0132	595.1418	2.6502	2.5534
293	2008.1424	0.0134	594.9661	2.6502	2.4142
294	2008.1588	0.0164	594.8460	2.6502	2.4089
295	2008.1717	0.0129	594.5552	2.6502	2.3019
296	2008.1841	0.0124	594.2137	2.6503	2.3441
297	2008.1972	0.0131	593.8804	2.6503	2.4332
298	2008.2076	0.0104	593.4706	2.6503	2.3697
299	2008.2216	0.0140	593.3253	2.6503	2.2157
300	2008.2337	0.0121	592.8738	2.6503	2.2473
301	2008.2469	0.0132	592.5530	2.6503	2.4791
302	2008.2576	0.0107	592.2079	2.6504	2.5439
303	2008.2735	0.0159	592.3216	2.6504	2.4161
304	2008.2885	0.0150	592.2095	2.6504	2.5074
305	2008.3011	0.0126	591.8807	2.6504	2.3321
306	2008.3153	0.0142	591.6860	2.6504	2.1701
307	2008.3286	0.0133	591.4094	2.6505	2.2526
308	2008.3417	0.0131	591.1192	2.6505	2.4110
309	2008.3545	0.0128	590.7120	2.6505	2.3627
310	2008.3714	0.0169	590.6487	2.6505	2.5369
311	2008.3851	0.0137	590.6646	2.6505	2.6251
312	2008.3964	0.0113	590.2858	2.6505	2.3502
313	2008.4121	0.0157	590.2844	2.6506	2.2398
314	2008.4267	0.0146	590.1500	2.6506	2.4234
315	2008.4379	0.0112	589.8856	2.6506	2.5284
316	2008.4491	0.0112	589.2879	2.6506	2.4475
317	2008.4600	0.0109	588.6338	2.6506	2.3378
318	2008.4751	0.0151	588.4413	2.6506	2.3752
319	2008.4918	0.0167	588.6225	2.6507	2.5694
320	2008.5073	0.0155	588.6719	2.6507	2.5063
321	2008.5199	0.0126	588.1689	2.6507	2.3094
322	2008.5378	0.0179	588.2090	2.6507	2.3225
323	2008.5494	0.0116	588.0317	2.6507	2.4386
324	2008.5581	0.0087	587.2932	2.6508	2.2403
325	2008.5692	0.0111	586.7230	2.6508	2.2339
326	2008.5840	0.0148	586.6312	2.6508	2.2380
327	2008.5995	0.0155	586.8596	2.6508	2.4048
328	2008.6112	0.0117	586.2977	2.6508	2.1751
329	2008.6254	0.0142	586.1702	2.6508	2.2329
330	2008.6383	0.0129	585.9733	2.6509	2.5096
331	2008.6500	0.0117	585.7059	2.6509	2.4739
332	2008.6627	0.0127	585.3069	2.6509	2.4227
333	2008.6788	0.0161	585.2738	2.6509	2.2755
334	2008.6947	0.0159	585.1626	2.6509	2.3705
335	2008.7072	0.0125	585.1902	2.6510	2.5782
336	2008.7205	0.0133	584.9454	2.6510	2.3024
337	2008.7335	0.0130	584.5654	2.6510	2.0806
338	2008.7416	0.0081	583.8621	2.6510	2.1226
339	2008.7591	0.0175	584.2472	2.6510	2.6002
340	2008.7733	0.0142	584.2217	2.6510	2.4822
341	2008.7836	0.0103	583.5936	2.6511	2.3332
342	2008.7961	0.0125	583.0807	2.6511	2.4023
343	2008.8102	0.0141	583.2020	2.6511	2.5519
344	2008.8218	0.0116	582.9708	2.6511	2.3208
345	2008.8347	0.0129	582.6414	2.6511	2.1658
346	2008.8453	0.0106	582.1167	2.6511	2.1253
347	2008.8610	0.0157	582.0742	2.6512	2.3972
348	2008.8742	0.0132	581.8663	2.6512	2.3730
349	2008.8877	0.0135	581.6781	2.6512	2.3182
350	2008.9011	0.0134	581.2481	2.6512	2.4308
351	2008.9131	0.0120	580.9561	2.6512	2.3885
352	2008.9238	0.0107	580.4310	2.6512	2.1151
353	2008.9384	0.0146	580.2887	2.6513	2.4083
354	2008.9499	0.0115	579.9567	2.6513	2.2582
355	2008.9624	0.0125	579.5179	2.6513	2.0083
356	2008.9764	0.0140	579.2985	2.6513	2.2945
357	2008.9924	0.0160	579.6211	2.6513	2.3971
358	2009.0079	0.0155	579.6721	2.6514	2.2851
359	2009.0168	0.0089	578.6962	2.6514	2.0315
360	2009.0280	0.0112	578.1599	2.6514	2.2555
361	2009.0426	0.0146	578.3762	2.6514	2.6311
362	2009.0563	0.0137	578.2310	2.6514	2.5161
363	2009.0710	0.0147	578.4919	2.6514	2.3274
364	2009.0861	0.0151	578.4284	2.6515	2.3518
365	2009.1009	0.0148	578.3345	2.6515	2.3843
366	2009.1113	0.0104	577.7319	2.6515	2.1183
367	2009.1202	0.0089	576.9636	2.6515	1.8980
368	2009.1327	0.0125	576.7445	2.6515	2.1391
369	2009.1454	0.0127	576.7964	2.6515	2.4187
370	2009.1570	0.0116	576.3247	2.6515	2.2564
371	2009.1734	0.0164	576.3566	2.6516	2.3600
372	2009.1883	0.0149	576.2722	2.6516	2.3948
373	2009.1966	0.0083	575.5258	2.6516	2.3410
374	2009.2115	0.0149	575.5430	2.6516	2.6190
375	2009.2253	0.0138	575.2889	2.6516	2.4547
376	2009.2413	0.0160	575.2609	2.6517	2.2820
377	2009.2522	0.0109	574.8713	2.6517	2.1391
378	2009.2639	0.0117	574.5765	2.6517	2.0029
379	2009.2825	0.0186	574.7416	2.6517	2.2857
380	2009.3002	0.0177	575.1314	2.6517	2.4895
381	2009.3120	0.0118	574.7441	2.6518	2.3233
382	2009.3215	0.0095	574.2234	2.6518	2.2929
383	2009.3363	0.0148	574.3101	2.6518	2.4893
384	2009.3504	0.0141	574.4318	2.6518	2.5887
385	2009.3597	0.0093	573.5660	2.6518	2.2098
386	2009.3719	0.0122	573.1211	2.6518	2.3347
387	2009.3882	0.0163	573.2933	2.6519	2.5450
388	2009.4004	0.0122	572.8441	2.6519	2.1854
389	2009.4133	0.0129	572.6824	2.6519	2.3187
390	2009.4256	0.0123	572.3983	2.6519	2.3488
391	2009.4389	0.0133	572.0300	2.6519	2.1212
392	2009.4551	0.0162	571.8785	2.6519	2.1660
393	2009.4672	0.0121	571.6440	2.6520	2.3824
394	2009.4796	0.0124	571.1928	2.6520	2.2794
395	2009.4893	0.0097	570.6985	2.6520	1.9761
396	2009.4973	0.0080	569.8611	2.6520	2.0271
397	2009.5120	0.0147	569.8918	2.6520	2.3739
398	2009.5247	0.0127	569.9377	2.6520	2.4477
399	2009.5394	0.0147	569.8678	2.6521	2.3333
